File: Workshop_Day1/Data/Al2O3_Expt.txt
# Al2O3 Experimental X-ray Diffraction
# 2theta  Intensity
5.000	21.000
5.060	17.000
5.120	36.000
5.180	23.000
5.240	23.000
5.300	27.000
5.360	18.000
5.420	27.000
5.480	22.000
5.540	24.000
5.600	31.000
5.660	29.000
5.720	24.000
5.780	39.000
5.840	28.000
5.900	25.000
5.960	29.000
6.020	20.000
6.080	15.000
6.140	31.000
6.200	25.000
6.260	24.000
6.320	19.000
6.380	27.000
6.440	21.000
6.500	19.000
6.560	23.000
6.620	21.000
6.680	13.000
6.740	19.000
6.800	17.000
6.860	24.000
6.920	18.000
6.980	18.000
7.040	27.000
7.100	20.000
7.160	22.000
7.220	21.000
7.280	19.000
7.340	13.000
7.400	13.000
7.460	17.000
7.520	22.000
7.580	22.000
7.640	17.000
7.700	15.000
7.760	15.000
7.820	18.000
7.880	18.000
7.940	18.000
8.000	20.000
8.060	19.000
8.120	29.000
8.180	15.000
8.240	19.000
8.300	24.000
8.360	18.000
8.420	18.000
8.480	14.000
8.540	14.000
8.600	24.000
8.660	9.000
8.720	20.000
8.780	14.000
8.840	7.000
8.900	12.000
8.960	24.000
9.020	19.000
9.080	17.000
9.140	15.000
9.200	17.000
9.260	14.000
9.320	11.000
9.380	18.000
9.440	7.000
9.500	8.000
9.560	13.000
9.620	19.000
9.680	11.000
9.740	15.000
9.800	24.000
9.860	12.000
9.920	21.000
9.980	15.000
10.040	17.000
10.100	8.000
10.160	20.000
10.220	16.000
10.280	9.000
10.340	14.000
10.400	11.000
10.460	14.000
10.520	6.000
10.580	9.000
10.640	8.000
10.700	10.000
10.760	11.000
10.820	9.000
10.880	8.000
10.940	13.000
11.000	16.000
11.060	11.000
11.120	12.000
11.180	12.000
11.240	17.000
11.300	13.000
11.360	7.000
11.420	17.000
11.480	11.000
11.540	12.000
11.600	16.000
11.660	10.000
11.720	10.000
11.780	16.000
11.840	17.000
11.900	14.000
11.960	13.000
12.020	17.000
12.080	16.000
12.140	8.000
12.200	13.000
12.260	14.000
12.320	12.000
12.380	13.000
12.440	15.000
12.500	13.000
12.560	13.000
12.620	15.000
12.680	16.000
12.740	13.000
12.800	11.000
12.860	16.000
12.920	15.000
12.980	15.000
13.040	20.000
13.100	12.000
13.160	15.000
13.220	12.000
13.280	11.000
13.340	9.000
13.400	13.000
13.460	13.000
13.520	7.000
13.580	11.000
13.640	11.000
13.700	16.000
13.760	14.000
13.820	15.000
13.880	13.000
13.940	6.000
14.000	20.000
14.060	9.000
14.120	12.000
14.180	20.000
14.240	10.000
14.300	16.000
14.360	8.000
14.420	10.000
14.480	23.000
14.540	19.000
14.600	8.000
14.660	11.000
14.720	10.000
14.780	12.000
14.840	16.000
14.900	15.000
14.960	8.000
15.020	13.000
15.080	13.000
15.140	14.000
15.200	10.000
15.260	7.000
15.320	11.000
15.380	12.000
15.440	12.000
15.500	14.000
15.560	8.000
15.620	12.000
15.680	15.000
15.740	11.000
15.800	5.000
15.860	7.000
15.920	14.000
15.980	7.000
16.040	9.000
16.100	10.000
16.160	16.000
16.220	13.000
16.280	8.000
16.340	10.000
16.400	13.000
16.460	10.000
16.520	12.000
16.580	16.000
16.640	8.000
16.700	11.000
16.760	10.000
16.820	10.000
16.880	8.000
16.940	13.000
17.000	7.000
17.060	14.000
17.120	8.000
17.180	10.000
17.240	17.000
17.300	11.000
17.360	7.000
17.420	10.000
17.480	6.000
17.540	7.000
17.600	6.000
17.660	12.000
17.720	11.000
17.780	4.000
17.840	10.000
17.900	11.000
17.960	4.000
18.020	8.000
18.080	2.000
18.140	5.000
18.200	8.000
18.260	10.000
18.320	11.000
18.380	7.000
18.440	10.000
18.500	8.000
18.560	15.000
18.620	9.000
18.680	3.000
18.740	15.000
18.800	9.000
18.860	14.000
18.920	8.000
18.980	9.000
19.040	11.000
19.100	6.000
19.160	9.000
19.220	10.000
19.280	4.000
19.340	10.000
19.400	9.000
19.460	6.000
19.520	10.000
19.580	5.000
19.640	5.000
19.700	8.000
19.760	11.000
19.820	6.000
19.880	11.000
19.940	8.000
20.000	7.000
20.060	11.000
20.120	8.000
20.180	10.000
20.240	15.000
20.300	7.000
20.360	10.000
20.420	5.000
20.480	12.000
20.540	6.000
20.600	6.000
20.660	9.000
20.720	8.000
20.780	16.000
20.840	11.000
20.900	9.000
20.960	13.000
21.020	8.000
21.080	10.000
21.140	8.000
21.200	3.000
21.260	12.000
21.320	11.000
21.380	5.000
21.440	10.000
21.500	5.000
21.560	3.000
21.620	9.000
21.680	9.000
21.740	9.000
21.800	9.000
21.860	8.000
21.920	12.000
21.980	10.000
22.040	9.000
22.100	6.000
22.160	11.000
22.220	11.000
22.280	8.000
22.340	13.000
22.400	12.000
22.460	7.000
22.520	11.000
22.580	7.000
22.640	11.000
22.700	9.000
22.760	10.000
22.820	11.000
22.880	5.000
22.940	14.000
23.000	12.000
23.060	17.000
23.120	21.000
23.180	10.000
23.240	9.000
23.300	9.000
23.360	12.000
23.420	7.000
23.480	10.000
23.540	9.000
23.600	5.000
23.660	2.000
23.720	5.000
23.780	10.000
23.840	9.000
23.900	11.000
23.960	7.000
24.020	9.000
24.080	10.000
24.140	6.000
24.200	7.000
24.260	5.000
24.320	5.000
24.380	7.000
24.440	7.000
24.500	10.000
24.560	8.000
24.620	13.000
24.680	9.000
24.740	7.000
24.800	7.000
24.860	18.000
24.920	14.000
24.980	13.000
25.040	14.000
25.100	13.000
25.160	15.000
25.220	11.000
25.280	16.000
25.340	9.000
25.400	19.000
25.460	20.000
25.520	74.000
25.580	204.000
25.640	1132.000
25.700	629.000
25.760	134.000
25.820	48.000
25.880	22.000
25.940	8.000
26.000	13.000
26.060	18.000
26.120	14.000
26.180	16.000
26.240	10.000
26.300	13.000
26.360	6.000
26.420	12.000
26.480	9.000
26.540	14.000
26.600	10.000
26.660	6.000
26.720	7.000
26.780	10.000
26.840	10.000
26.900	10.000
26.960	14.000
27.020	13.000
27.080	12.000
27.140	8.000
27.200	9.000
27.260	11.000
27.320	3.000
27.380	11.000
27.440	13.000
27.500	8.000
27.560	8.000
27.620	12.000
27.680	8.000
27.740	17.000
27.800	5.000
27.860	9.000
27.920	6.000
27.980	10.000
28.040	12.000
28.100	7.000
28.160	12.000
28.220	11.000
28.280	15.000
28.340	8.000
28.400	9.000
28.460	11.000
28.520	7.000
28.580	8.000
28.640	5.000
28.700	6.000
28.760	10.000
28.820	10.000
28.880	11.000
28.940	9.000
29.000	12.000
29.060	14.000
29.120	7.000
29.180	8.000
29.240	8.000
29.300	9.000
29.360	6.000
29.420	10.000
29.480	5.000
29.540	5.000
29.600	6.000
29.660	10.000
29.720	9.000
29.780	8.000
29.840	9.000
29.900	9.000
29.960	4.000
30.020	13.000
30.080	11.000
30.140	8.000
30.200	9.000
30.260	5.000
30.320	5.000
30.380	12.000
30.440	9.000
30.500	5.000
30.560	11.000
30.620	8.000
30.680	6.000
30.740	12.000
30.800	8.000
30.860	5.000
30.920	7.000
30.980	14.000
31.040	5.000
31.100	9.000
31.160	8.000
31.220	11.000
31.280	11.000
31.340	8.000
31.400	12.000
31.460	12.000
31.520	6.000
31.580	7.000
31.640	10.000
31.700	20.000
31.760	22.000
31.820	6.000
31.880	4.000
31.940	9.000
32.000	12.000
32.060	4.000
32.120	12.000
32.180	6.000
32.240	6.000
32.300	10.000
32.360	8.000
32.420	9.000
32.480	7.000
32.540	5.000
32.600	5.000
32.660	7.000
32.720	6.000
32.780	11.000
32.840	9.000
32.900	4.000
32.960	10.000
33.020	6.000
33.080	9.000
33.140	7.000
33.200	11.000
33.260	3.000
33.320	5.000
33.380	7.000
33.440	8.000
33.500	8.000
33.560	10.000
33.620	8.000
33.680	10.000
33.740	8.000
33.800	8.000
33.860	11.000
33.920	12.000
33.980	11.000
34.040	13.000
34.100	19.000
34.160	7.000
34.220	15.000
34.280	7.000
34.340	13.000
34.400	9.000
34.460	4.000
34.520	15.000
34.580	7.000
34.640	6.000
34.700	10.000
34.760	8.000
34.820	20.000
34.880	19.000
34.940	29.000
35.000	37.000
35.060	65.000
35.120	160.000
35.180	598.000
35.240	651.000
35.300	653.000
35.360	134.000
35.420	53.000
35.480	41.000
35.540	21.000
35.600	16.000
35.660	16.000
35.720	23.000
35.780	17.000
35.840	13.000
35.900	10.000
35.960	10.000
36.020	9.000
36.080	8.000
36.140	12.000
36.200	12.000
36.260	10.000
36.320	14.000
36.380	4.000
36.440	12.000
36.500	13.000
36.560	11.000
36.620	4.000
36.680	10.000
36.740	12.000
36.800	12.000
36.860	9.000
36.920	10.000
36.980	12.000
37.040	9.000
37.100	10.000
37.160	5.000
37.220	8.000
37.280	10.000
37.340	12.000
37.400	23.000
37.460	8.000
37.520	15.000
37.580	25.000
37.640	27.000
37.700	49.000
37.760	81.000
37.820	459.000
37.880	209.000
37.940	458.000
38.000	59.000
38.060	38.000
38.120	31.000
38.180	18.000
38.240	24.000
38.300	14.000
38.360	10.000
38.420	11.000
38.480	9.000
38.540	8.000
38.600	9.000
38.660	5.000
38.720	9.000
38.780	17.000
38.840	14.000
38.900	7.000
38.960	14.000
39.020	12.000
39.080	32.000
39.140	12.000
39.200	13.000
39.260	6.000
39.320	6.000
39.380	5.000
39.440	12.000
39.500	12.000
39.560	9.000
39.620	6.000
39.680	8.000
39.740	9.000
39.800	14.000
39.860	10.000
39.920	9.000
39.980	10.000
40.040	8.000
40.100	5.000
40.160	5.000
40.220	11.000
40.280	8.000
40.340	12.000
40.400	6.000
40.460	9.000
40.520	7.000
40.580	7.000
40.640	11.000
40.700	12.000
40.760	11.000
40.820	9.000
40.880	8.000
40.940	10.000
41.000	6.000
41.060	5.000
41.120	15.000
41.180	11.000
41.240	8.000
41.300	8.000
41.360	9.000
41.420	15.000
41.480	10.000
41.540	9.000
41.600	12.000
41.660	18.000
41.720	15.000
41.780	16.000
41.840	17.000
41.900	7.000
41.960	7.000
42.020	11.000
42.080	14.000
42.140	8.000
42.200	7.000
42.260	10.000
42.320	16.000
42.380	8.000
42.440	12.000
42.500	20.000
42.560	9.000
42.620	9.000
42.680	13.000
42.740	11.000
42.800	21.000
42.860	17.000
42.920	14.000
42.980	16.000
43.040	23.000
43.100	25.000
43.160	31.000
43.220	58.000
43.280	87.000
43.340	234.000
43.400	823.000
43.460	407.000
43.520	511.000
43.580	155.000
43.640	75.000
43.700	54.000
43.760	29.000
43.820	27.000
43.880	15.000
43.940	15.000
44.000	14.000
44.060	14.000
44.120	14.000
44.180	13.000
44.240	10.000
44.300	13.000
44.360	11.000
44.420	13.000
44.480	5.000
44.540	5.000
44.600	19.000
44.660	6.000
44.720	5.000
44.780	8.000
44.840	11.000
44.900	9.000
44.960	11.000
45.020	14.000
45.080	7.000
45.140	10.000
45.200	10.000
45.260	15.000
45.320	11.000
45.380	10.000
45.440	13.000
45.500	9.000
45.560	9.000
45.620	6.000
45.680	12.000
45.740	4.000
45.800	10.000
45.860	8.000
45.920	9.000
45.980	8.000
46.040	12.000
46.100	9.000
46.160	13.000
46.220	23.000
46.280	9.000
46.340	19.000
46.400	12.000
46.460	9.000
46.520	14.000
46.580	11.000
46.640	11.000
46.700	15.000
46.760	6.000
46.820	10.000
46.880	8.000
46.940	6.000
47.000	13.000
47.060	14.000
47.120	14.000
47.180	9.000
47.240	20.000
47.300	7.000
47.360	9.000
47.420	15.000
47.480	8.000
47.540	7.000
47.600	16.000
47.660	15.000
47.720	14.000
47.780	7.000
47.840	11.000
47.900	11.000
47.960	5.000
48.020	7.000
48.080	8.000
48.140	12.000
48.200	7.000
48.260	12.000
48.320	10.000
48.380	15.000
48.440	10.000
48.500	10.000
48.560	8.000
48.620	5.000
48.680	8.000
48.740	6.000
48.800	5.000
48.860	7.000
48.920	4.000
48.980	5.000
49.040	12.000
49.100	10.000
49.160	10.000
49.220	8.000
49.280	7.000
49.340	6.000
49.400	6.000
49.460	9.000
49.520	14.000
49.580	14.000
49.640	13.000
49.700	7.000
49.760	9.000
49.820	13.000
49.880	7.000
49.940	9.000
50.000	11.000
50.060	6.000
50.120	8.000
50.180	6.000
50.240	10.000
50.300	10.000
50.360	10.000
50.420	6.000
50.480	9.000
50.540	12.000
50.600	11.000
50.660	11.000
50.720	9.000
50.780	18.000
50.840	8.000
50.900	7.000
50.960	12.000
51.020	5.000
51.080	9.000
51.140	8.000
51.200	6.000
51.260	6.000
51.320	12.000
51.380	9.000
51.440	3.000
51.500	16.000
51.560	18.000
51.620	14.000
51.680	10.000
51.740	13.000
51.800	16.000
51.860	18.000
51.920	13.000
51.980	11.000
52.040	17.000
52.100	14.000
52.160	14.000
52.220	17.000
52.280	18.000
52.340	26.000
52.400	28.000
52.460	53.000
52.520	93.000
52.580	317.000
52.640	352.000
52.700	156.000
52.760	327.000
52.820	93.000
52.880	34.000
52.940	23.000
53.000	18.000
53.060	17.000
53.120	18.000
53.180	11.000
53.240	20.000
53.300	12.000
53.360	10.000
53.420	7.000
53.480	11.000
53.540	11.000
53.600	11.000
53.660	7.000
53.720	7.000
53.780	7.000
53.840	4.000
53.900	3.000
53.960	3.000
54.020	11.000
54.080	8.000
54.140	4.000
54.200	6.000
54.260	11.000
54.320	6.000
54.380	9.000
54.440	8.000
54.500	6.000
54.560	11.000
54.620	6.000
54.680	4.000
54.740	6.000
54.800	8.000
54.860	8.000
54.920	10.000
54.980	8.000
55.040	7.000
55.100	8.000
55.160	4.000
55.220	9.000
55.280	6.000
55.340	7.000
55.400	10.000
55.460	11.000
55.520	10.000
55.580	6.000
55.640	6.000
55.700	17.000
55.760	4.000
55.820	14.000
55.880	7.000
55.940	7.000
56.000	11.000
56.060	10.000
56.120	14.000
56.180	12.000
56.240	3.000
56.300	10.000
56.360	5.000
56.420	8.000
56.480	14.000
56.540	8.000
56.600	5.000
56.660	8.000
56.720	14.000
56.780	13.000
56.840	14.000
56.900	12.000
56.960	17.000
57.020	16.000
57.080	15.000
57.140	19.000
57.200	34.000
57.260	31.000
57.320	47.000
57.380	54.000
57.440	145.000
57.500	357.000
57.560	769.000
57.620	336.000
57.680	344.000
57.740	335.000
57.800	128.000
57.860	60.000
57.920	40.000
57.980	32.000
58.040	22.000
58.100	17.000
58.160	13.000
58.220	21.000
58.280	10.000
58.340	12.000
58.400	13.000
58.460	10.000
58.520	12.000
58.580	6.000
58.640	13.000
58.700	12.000
58.760	5.000
58.820	8.000
58.880	9.000
58.940	5.000
59.000	8.000
59.060	11.000
59.120	13.000
59.180	8.000
59.240	16.000
59.300	4.000
59.360	20.000
59.420	13.000
59.480	7.000
59.540	10.000
59.600	18.000
59.660	14.000
59.720	20.000
59.780	21.000
59.840	15.000
59.900	17.000
59.960	19.000
60.020	15.000
60.080	8.000
60.140	6.000
60.200	8.000
60.260	6.000
60.320	11.000
60.380	9.000
60.440	7.000
60.500	8.000
60.560	12.000
60.620	7.000
60.680	13.000
60.740	11.000
60.800	11.000
60.860	9.000
60.920	17.000
60.980	15.000
61.040	12.000
61.100	14.000
61.160	29.000
61.220	21.000
61.280	31.000
61.340	68.000
61.400	42.000
61.460	32.000
61.520	40.000
61.580	15.000
61.640	12.000
61.700	11.000
61.760	10.000
61.820	13.000
61.880	12.000
61.940	8.000
62.000	8.000
62.060	7.000
62.120	6.000
62.180	6.000
62.240	5.000
62.300	13.000
62.360	6.000
62.420	5.000
62.480	15.000
62.540	17.000
62.600	13.000
62.660	7.000
62.720	6.000
62.780	8.000
62.840	9.000
62.900	8.000
62.960	5.000
63.020	7.000
63.080	4.000
63.140	6.000
63.200	8.000
63.260	9.000
63.320	6.000
63.380	12.000
63.440	12.000
63.500	7.000
63.560	9.000
63.620	6.000
63.680	4.000
63.740	10.000
63.800	6.000
63.860	5.000
63.920	7.000
63.980	8.000
64.040	8.000
64.100	3.000
64.160	6.000
64.220	10.000
64.280	11.000
64.340	11.000
64.400	6.000
64.460	5.000
64.520	7.000
64.580	7.000
64.640	5.000
64.700	6.000
64.760	8.000
64.820	7.000
64.880	6.000
64.940	2.000
65.000	4.000
65.060	9.000
65.120	8.000
65.180	6.000
65.240	8.000
65.300	10.000
65.360	5.000
65.420	9.000
65.480	7.000
65.540	6.000
65.600	14.000
65.660	13.000
65.720	9.000
65.780	7.000
65.840	9.000
65.900	11.000
65.960	18.000
66.020	10.000
66.080	14.000
66.140	10.000
66.200	15.000
66.260	23.000
66.320	25.000
66.380	48.000
66.440	53.000
66.500	126.000
66.560	288.000
66.620	149.000
66.680	101.000
66.740	126.000
66.800	98.000
66.860	34.000
66.920	21.000
66.980	28.000
67.040	20.000
67.100	15.000
67.160	19.000
67.220	7.000
67.280	8.000
67.340	11.000
67.400	18.000
67.460	8.000
67.520	9.000
67.580	10.000
67.640	15.000
67.700	17.000
67.760	13.000
67.820	10.000
67.880	18.000
67.940	23.000
68.000	28.000
68.060	46.000
68.120	69.000
68.180	103.000
68.240	351.000
68.300	235.000
68.360	122.000
68.420	176.000
68.480	147.000
68.540	69.000
68.600	37.000
68.660	30.000
68.720	16.000
68.780	15.000
68.840	12.000
68.900	10.000
68.960	18.000
69.020	11.000
69.080	7.000
69.140	8.000
69.200	12.000
69.260	6.000
69.320	8.000
69.380	11.000
69.440	14.000
69.500	8.000
69.560	8.000
69.620	14.000
69.680	13.000
69.740	10.000
69.800	6.000
69.860	7.000
69.920	9.000
69.980	9.000
70.040	3.000
70.100	7.000
70.160	10.000
70.220	8.000
70.280	6.000
70.340	7.000
70.400	11.000
70.460	15.000
70.520	13.000
70.580	5.000
70.640	17.000
70.700	10.000
70.760	11.000
70.820	13.000
70.880	6.000
70.940	7.000
71.000	5.000
71.060	7.000
71.120	3.000
71.180	4.000
71.240	10.000
71.300	4.000
71.360	12.000
71.420	9.000
71.480	7.000
71.540	5.000
71.600	7.000
71.660	14.000
71.720	8.000
71.780	8.000
71.840	8.000
71.900	7.000
71.960	4.000
72.020	11.000
72.080	9.000
72.140	9.000
72.200	7.000
72.260	9.000
72.320	6.000
72.380	13.000
72.440	7.000
72.500	6.000
72.560	10.000
72.620	14.000
72.680	12.000
72.740	7.000
72.800	5.000
72.860	6.000
72.920	5.000
72.980	8.000
73.040	9.000
73.100	3.000
73.160	7.000
73.220	7.000
73.280	4.000
73.340	10.000
73.400	17.000
73.460	6.000
73.520	6.000
73.580	8.000
73.640	4.000
73.700	5.000
73.760	12.000
73.820	10.000
73.880	9.000
73.940	9.000
74.000	9.000
74.060	8.000
74.120	7.000
74.180	7.000
74.240	6.000
74.300	12.000
74.360	27.000
74.420	9.000
74.480	13.000
74.540	16.000
74.600	12.000
74.660	6.000
74.720	11.000
74.780	6.000
74.840	5.000
74.900	3.000
74.960	10.000
75.020	7.000
75.080	8.000
75.140	6.000
75.200	3.000
75.260	7.000
75.320	10.000
75.380	2.000
75.440	8.000
75.500	14.000
75.560	10.000
75.620	5.000
75.680	8.000
75.740	9.000
75.800	7.000
75.860	5.000
75.920	5.000
75.980	10.000
76.040	10.000
76.100	6.000
76.160	4.000
76.220	6.000
76.280	10.000
76.340	12.000
76.400	7.000
76.460	11.000
76.520	10.000
76.580	19.000
76.640	7.000
76.700	11.000
76.760	18.000
76.820	24.000
76.880	59.000
76.940	94.000
77.000	37.000
77.060	40.000
77.120	53.000
77.180	46.000
77.240	37.000
77.300	44.000
77.360	19.000
77.420	14.000
77.480	33.000
77.540	31.000
77.600	12.000
77.660	11.000
77.720	11.000
77.780	10.000
77.840	14.000
77.900	13.000
77.960	8.000
78.020	9.000
78.080	3.000
78.140	6.000
78.200	6.000
78.260	5.000
78.320	6.000
78.380	11.000
78.440	6.000
78.500	10.000
78.560	7.000
78.620	6.000
78.680	9.000
78.740	6.000
78.800	7.000
78.860	9.000
78.920	7.000
78.980	7.000
79.040	5.000
79.100	6.000
79.160	12.000
79.220	7.000
79.280	10.000
79.340	10.000
79.400	9.000
79.460	8.000
79.520	4.000
79.580	7.000
79.640	4.000
79.700	8.000
79.760	5.000
79.820	10.000
79.880	9.000
79.940	5.000
80.000	10.000
80.060	7.000
80.120	10.000
80.180	8.000
80.240	7.000
80.300	6.000
80.360	5.000
80.420	17.000
80.480	16.000
80.540	13.000
80.600	10.000
80.660	15.000
80.720	30.000
80.780	49.000
80.840	24.000
80.900	19.000
80.960	21.000
81.020	19.000
81.080	13.000
81.140	5.000
81.200	9.000
81.260	12.000
81.320	7.000
81.380	6.000
81.440	4.000
81.500	10.000
81.560	8.000
81.620	2.000
81.680	14.000
81.740	9.000
81.800	10.000
81.860	4.000
81.920	5.000
81.980	4.000
82.040	5.000
82.100	7.000
82.160	5.000
82.220	8.000
82.280	9.000
82.340	8.000
82.400	7.000
82.460	6.000
82.520	10.000
82.580	5.000
82.640	9.000
82.700	7.000
82.760	9.000
82.820	4.000
82.880	12.000
82.940	4.000
83.000	9.000
83.060	9.000
83.120	5.000
83.180	8.000
83.240	11.000
83.300	11.000
83.360	7.000
83.420	6.000
83.480	8.000
83.540	8.000
83.600	6.000
83.660	12.000
83.720	9.000
83.780	13.000
83.840	9.000
83.900	15.000
83.960	8.000
84.020	11.000
84.080	7.000
84.140	14.000
84.200	10.000
84.260	12.000
84.320	18.000
84.380	35.000
84.440	23.000
84.500	15.000
84.560	21.000
84.620	19.000
84.680	21.000
84.740	12.000
84.800	8.000
84.860	7.000
84.920	7.000
84.980	7.000
85.040	11.000
85.100	7.000
85.160	18.000
85.220	13.000
85.280	6.000
85.340	5.000
85.400	6.000
85.460	6.000
85.520	9.000
85.580	9.000
85.640	7.000
85.700	12.000
85.760	4.000
85.820	9.000
85.880	4.000
85.940	6.000
86.000	3.000
86.060	8.000
86.120	7.000
86.180	11.000
86.240	20.000
86.300	13.000
86.360	24.000
86.420	24.000
86.480	20.000
86.540	23.000
86.600	25.000
86.660	17.000
86.720	26.000
86.780	14.000
86.840	17.000
86.900	18.000
86.960	8.000
87.020	7.000
87.080	8.000
87.140	6.000
87.200	9.000
87.260	4.000
87.320	12.000
87.380	5.000
87.440	6.000
87.500	9.000
87.560	7.000
87.620	6.000
87.680	4.000
87.740	9.000
87.800	8.000
87.860	8.000
87.920	10.000
87.980	5.000
88.040	3.000
88.100	6.000
88.160	7.000
88.220	6.000
88.280	8.000
88.340	10.000
88.400	6.000
88.460	9.000
88.520	12.000
88.580	6.000
88.640	7.000
88.700	5.000
88.760	5.000
88.820	10.000
88.880	11.000
88.940	17.000
89.000	35.000
89.060	58.000
89.120	15.000
89.180	17.000
89.240	29.000
89.300	27.000
89.360	33.000
89.420	13.000
89.480	8.000
89.540	10.000
89.600	11.000
89.660	11.000
89.720	6.000
89.780	5.000
89.840	9.000
89.900	7.000
89.960	10.000
89.990	8.000